acc_x,acc_y,acc_z
0.6839875,0.060075,0.163275
0.775944444,0.0769,0.263477778
0.824085714,0.105914286,0.368157143
0.80393,0.07576,0.42028
0.7947875,0.0336625,0.3456375
0.8925,0.063533333,0.233422222
1.031511111,0.120688889,0.234622222
1.1358625,0.151375,0.2958
1.192088889,0.141522222,0.325766667
1.2679875,0.054575,0.3161375
1.312788889,-0.028988889,0.289366667
1.221575,-0.110275,0.24435
1.02855,-0.1592625,0.2681875
0.875655556,-0.162466667,0.307455556
0.9686875,-0.150425,0.4340375
1.287966667,-0.097988889,0.539933333
1.54865,-0.021,0.5411625
1.4337375,0.0461875,0.5424125
0.99961,0.0396,0.42691
0.6646,0.0189125,0.2577125
0.501355556,0.027066667,0.155011111
0.44205,0.0836375,0.129
0.470166667,0.137116667,0.128466667
0.514218182,0.159236364,0.184154545
0.561755556,0.123311111,0.256988889
0.68065,0.0796875,0.3927625
0.8356375,0.0883875,0.5447875
0.997455556,0.114777778,0.613733333
1.0801125,0.0716875,0.5507125
1.123977778,-0.012433333,0.443888889
1.2213875,-0.073025,0.4055
1.276633333,-0.082544444,0.546355556
1.269328571,-0.018671429,0.536057143
1.26615,0.03495,0.3143
1.394933333,0.027611111,0.268933333
1.700228571,0.055271429,0.191071429
1.803844444,0.0984,0.365966667
1.134288889,0.184011111,0.742033333
0.607583333,0.273416667,0.932666667
0.629890909,0.093145455,0.693890909
0.89215,-0.257025,0.0427625
1.127666667,-0.106622222,-0.324
1.1839,0.180075,-0.2712375
1.0242,0.240377778,0.032177778
0.773675,0.1382,0.2735125
0.639044444,0.028388889,0.265688889
0.6226625,-0.0424625,0.1788625
0.68975,-0.0725625,0.1652375
0.82884,-0.00204,0.22575
0.9343625,0.0985625,0.2947375
0.9639375,0.138025,0.3109875
0.957633333,0.168933333,0.326911111
0.94005,0.1872,0.3544875
0.912122222,0.159755556,0.370266667
0.9136375,0.1204625,0.366275
0.937211111,0.106544444,0.361288889
0.9643375,0.1043375,0.34205
0.965142857,0.091214286,0.3044
0.95324,0.0909,0.29384
0.991166667,0.100277778,0.368122222
0.986925,0.0437125,0.4953875
1.003811111,0.006233333,0.6072
1.174285714,0.085228571,0.364414286
1.181011111,0.037866667,0.255322222
1.246266667,0.015355556,0.078622222
1.382111111,0.046111111,-0.104988889
1.3959375,0.0245125,-0.0610375
1.211344444,-0.018077778,0.047955556
1.033033333,-0.060783333,0.122383333
0.893945455,-0.117481818,0.188027273
0.8684125,-0.0736625,0.3487125
0.953677778,0.032255556,0.439744444
1.0411625,0.08485,0.4341375
1.022288889,0.090022222,0.371611111
0.937375,0.0814625,0.2846875
0.851425,0.088925,0.2333
0.764388889,0.104777778,0.235622222
0.692877778,0.102188889,0.257188889
0.663475,0.096725,0.2713125
0.676011111,0.085644444,0.259055556
0.7428375,0.0791375,0.236075
0.812166667,0.089866667,0.215866667
0.876125,0.1050625,0.2218
0.921866667,0.095411111,0.253355556
0.943675,0.0886,0.2828125
0.938355556,0.078866667,0.286611111
0.9271875,0.060975,0.2727
0.9296875,0.0345375,0.2803875
0.922944444,0.022622222,0.306222222
0.8947625,0.0109125,0.4197625
0.91439,0.09998,0.72554
1.088975,0.1245625,0.7731625
1.2352125,0.0627125,0.4870875
1.3593375,-0.0021875,0.12595
1.485866667,0.069355556,-0.137322222
1.4699875,0.126,-0.1859
1.276077778,0.076066667,-0.128288889
0.986142857,0.025685714,0.015742857
0.76574,0.0248,0.21043
0.78205,0.0131875,0.3241375
0.947777778,0.009155556,0.329444444
1.1135625,0.042125,0.29385
1.1955875,0.115675,0.278975
1.124411111,0.167522222,0.291777778
0.908133333,0.137522222,0.278111111
0.726255556,0.087866667,0.234788889
0.636725,0.035275,0.1655375
0.612225,-0.0025875,0.094825
0.628728571,-0.0109,0.050157143
0.673863636,0.011390909,0.060845455
0.7053625,0.0348875,0.1173875
0.706,0.02855,0.150475
0.6906,0.007025,0.207325
0.69191,0.02061,0.28263
0.7328375,0.080125,0.3234375
0.75825,0.10025,0.28485
0.7737,0.10445,0.2344
0.823122222,0.185555556,0.2344
0.922525,0.2787125,0.2981375
1.08316,0.26497,0.3484
1.2209375,0.1263,0.12995
1.2309375,0.0889625,-0.0212875
1.1342,0.099422222,0.004866667
1.0484625,0.0450875,0.12555
0.952055556,-0.044111111,0.211166667
0.896055556,-0.132044444,0.2501
0.9360625,-0.2042,0.1569625
1.115311111,-0.211833333,0.218144444
1.267,-0.0906,0.35895
1.214825,-0.01255,0.4575125
0.982133333,0.099344444,0.430711111
0.855266667,0.156511111,0.4106
0.936,0.095125,0.3834125
1.0544,0.1123625,0.316375
1.0006,0.211922222,0.257777778
0.7988,0.2533125,0.2860375
0.616,0.160555556,0.353977778
0.563125,0.009225,0.2643875
0.687222222,-0.093255556,0.078622222
0.932625,-0.0398375,0.071875
1.173011111,0.080022222,0.272977778
1.368888889,0.1571,0.498455556
1.394325,0.13135,0.5051
1.265014286,0.0361,0.3482
1.14886,-0.05051,0.14436
1.1578625,-0.04605,-0.0225375
1.214033333,0.004177778,0.010811111
1.26515,0.0904375,0.1249125
1.300322222,0.182011111,0.241377778
1.196033333,0.285744444,0.4949
1.0377625,0.327775,0.693525
0.926288889,0.182344444,0.5531
0.859475,-0.028575,0.243025
0.878471429,0.004242857,-0.012814286
0.87699,0.16055,-0.11634
0.740475,0.1927875,-0.0701875
0.496566667,0.087211111,0.037555556
0.3096375,-0.036775,0.1019625
0.27256,-0.08586,0.13034
0.430083333,-0.0205,0.212233333
0.769222222,0.153822222,0.2889
0.995075,0.295675,0.437425
1.1328,0.336355556,0.5604
1.140725,0.2969,0.5516125
1.125388889,0.206788889,0.4018
1.113111111,0.0528,0.182444444
1.0810625,0.0419,0.027125
1.0409375,0.0792375,-0.029325
0.932888889,-0.033677778,0.068188889
0.8126625,-0.14935,0.2091875
0.827844444,-0.157711111,0.106466667
0.8525,-0.1657375,0.1045125
1.0372,-0.111766667,0.539333333
1.447,0.01556,0.79672
1.800908333,0.103225,0.748575
1.580625,0.1284,0.6083875
1.067022222,0.048888889,0.478466667
0.722571429,-0.027671429,0.332585714
0.60317,-0.04732,0.16895
0.5846875,-0.0281875,0.1092375
0.620133333,0.012244444,0.158744444
0.6469375,0.056525,0.13975
0.641466667,0.067622222,0.137844444
0.60882,0.07602,0.1919
0.64375,0.087875,0.334833333
0.87755,0.1011625,0.4541125
1.160377778,0.114533333,0.539088889
1.4092875,0.096775,0.609625
1.5625875,0.0661375,0.5713375
1.47325,-0.00803,0.43879
1.214725,-0.06385,0.3145125
1.040566667,-0.075355556,0.183822222
0.9912875,-0.0599375,0.0263375
0.918925,-0.026775,-0.0953125
0.852488889,0.022477778,-0.068344444
0.9440125,0.1505,0.1418
1.067477778,0.287366667,0.4216
1.166255556,0.364466667,0.685922222
1.176642857,0.378157143,0.754385714
1.087622222,0.264266667,0.632033333
0.884633333,0.076644444,0.426411111
0.796278431,0.094554575,0.337426144
0.707923529,0.112464706,0.248441176
0.61974,0.15018,0.18406
0.578141667,0.113983333,0.106
0.5770625,0.11355,0.0215375
0.658277778,0.168055556,0.050188889
0.7603875,0.2546875,0.1999625
0.821171429,0.3208,0.392371429
0.8857,0.38514,0.60649
0.986811111,0.430955556,0.728211111
1.070855556,0.376633333,0.634466667
1.0829125,0.2554375,0.49845
1.10455,0.150375,0.29295
1.112133333,0.097577778,0.059522222
1.114144444,0.0603,0.039777778
1.1755,0.009775,0.0662625
1.2576375,-0.0719875,0.25195
1.3942,-0.1555,0.313966667
1.43575,-0.1831625,0.10585
1.285355556,-0.134944444,0.045077778
1.235166667,-0.0178,0.149922222
1.322675,0.1114625,0.3054125
1.448125,0.16655,0.407125
1.401311111,0.188733333,0.596011111
1.1311375,0.1665875,0.7328875
0.829644444,0.068144444,0.6846
0.5722625,-0.0557125,0.439675
0.4810625,-0.037,0.1899
0.515555556,0.039311111,0.070255556
0.609988889,0.094088889,0.078366667
0.6739875,0.113475,0.1123625
0.719611111,0.099377778,0.143633333
0.767022222,0.095266667,0.253455556
0.8141625,0.121675,0.3735
0.845211111,0.123088889,0.452944444
0.8865,0.1086,0.5086
0.9561875,0.0883875,0.5104
1.0458,0.087783333,0.511233333
1.180081818,0.127454545,0.556536364
1.195277778,0.125277778,0.687544444
1.0652125,0.0941625,0.8173125
1.016366667,0.008244444,0.650555556
1.0557375,-0.0226375,0.212825
1.2431,-0.011955556,-0.073711111
1.493075,0.088225,-0.179525
1.565722222,0.178666667,-0.092922222
1.2796625,0.1754125,0.0813875
0.913457143,0.101,0.228885714
0.717418182,0.028009091,0.243881818
0.7602875,-0.02735,0.2572625
0.9674375,0.0194625,0.2701
1.135833333,0.084466667,0.350788889
1.15128,0.17744,0.42266
1.003341667,0.20635,0.422766667
0.823075,0.1688625,0.32525
0.735988889,0.152355556,0.242266667
0.6962375,0.1463375,0.1907875
0.6967,0.128033333,0.16195
0.723190909,0.092418182,0.173090909
0.7798375,0.068975,0.2056375
0.855655556,0.091544444,0.2685
0.876077778,0.1241,0.343833333
0.803257143,0.144042857,0.389414286
0.68486,0.12555,0.36363
0.6074125,0.0996375,0.2834375
0.571866667,0.058777778,0.207555556
0.5566625,0.03495,0.1773
0.557414286,0.044957143,0.188857143
0.5711,0.10532,0.19348
0.631455556,0.186288889,0.185055556
0.72455,0.2689,0.245475
0.827811111,0.291055556,0.3931
0.981785714,0.269514286,0.514871429
1.24092,0.27156,0.74702
1.489025,0.1723,0.7190625
1.4949,0.091944444,0.455666667
1.299,0.0403125,0.2428875
1.084233333,-0.003711111,0.151955556
0.9542375,-0.0118125,0.0993625
1.008422222,-0.052955556,0.236466667
1.30645,-0.0453625,0.4489375
1.554011111,-0.003366667,0.628233333
1.519185714,0.058328571,0.689
1.24828,0.1584,0.64331
0.9084125,0.1968,0.5238125
0.728977778,0.155933333,0.396522222
0.668525,0.1182625,0.36435
0.654028571,0.110314286,0.3589
0.575,0.13916,0.42983
0.481166667,0.128566667,0.473122222
0.4372875,0.04755,0.2831875
0.426688889,-0.036011111,0.0429
0.4368125,-0.0480625,-0.0430875
0.493066667,0.017577778,0.0851
0.5534,0.0432125,0.294025
0.728133333,-0.007277778,0.444811111
0.9302,0.0064625,0.5100875
1.0543875,0.0485875,0.5481
1.169233333,0.071033333,0.572933333
1.340122222,0.058733333,0.558733333
1.4139875,0.038225,0.52455
1.326622222,0.051511111,0.422744444
1.2117875,0.081025,0.2533125
1.240811111,0.165033333,0.114188889
1.2666875,0.242225,0.1195375
1.248,0.284855556,0.355511111
1.3495625,0.3306375,0.5556875
1.4024875,0.3008125,0.6487375
1.3495,0.260625,0.69375
0.990678571,0.1593,0.571442857
0.641125,-0.013775,0.3346625
0.5363,-0.0777,0.142644444
0.478185714,-0.075485714,0.018357143
0.38199,-0.05949,0.11073
0.301125,-0.0572125,0.2859125
0.374444444,-0.0122,0.169955556
0.471825,0.0825875,0.032675
0.5705375,0.1286375,-0.0007
0.716955556,0.124544444,0.056966667
0.886744444,0.1569,0.167411111
0.94715,0.16355,0.325725
0.989722222,0.156777778,0.458155556
1.057033333,0.098466667,0.47315
1.242272727,0.040681818,0.337581818
1.4480875,0.022625,0.296875
1.400175,-0.002625,0.4116625
1.220677778,-0.033444444,0.453011111
1.132088889,-0.085155556,0.397444444
1.2143875,-0.100675,0.3794625
1.2997125,0.014175,0.5673375
1.125511111,0.145844444,0.628777778
0.731344444,0.133744444,0.494544444
0.507275,0.0632375,0.292975
0.529666667,-0.014255556,0.178355556
0.704875,-0.018625,0.1745875
0.799677778,0.132733333,0.215
0.712175,0.246225,0.30035
0.6134875,0.2601,0.4087875
0.820455556,0.230722222,0.431955556
1.2302625,0.1509875,0.2788625
1.462733333,0.111533333,0.181266667
1.484475,0.1077875,0.246875
1.266488889,0.076377778,0.368066667
1.115225,0.1056,0.276475
0.939655556,0.134444444,0.235677778
1.049822222,0.218288889,0.316144444
1.4856375,0.301975,0.335875
1.68225,0.328933333,0.498383333
1.401254545,0.4224,0.808563636
0.908366667,0.295422222,0.7736
0.74025,0.0576,0.431225
0.722111111,-0.048377778,-0.006355556
0.6981,0.003471429,-0.2113
0.5621,0.06002,-0.15834
0.4052,0.1015,0.0824125
0.398175,0.112525,0.2063875
0.474966667,0.137211111,0.230566667
0.563271429,0.187471429,0.2741
0.62184,0.20112,0.39481
0.761525,0.1670375,0.42855
0.955933333,0.144044444,0.283944444
1.0194,0.1099625,0.0878125
0.96115,0.1029875,-0.0201125
0.91523,0.06622,0.0438
1.0200625,-0.001575,0.1524375
1.072588889,-0.093555556,0.299844444
1.0676,-0.0788375,0.4445125
1.219533333,-0.035277778,0.461355556
1.5796375,-0.0520625,0.6388
2.011966667,0.0399,0.715622222
1.9342125,0.1497375,0.7258125
1.2227,0.066311111,0.657511111
0.6689125,-0.0177,0.4799375
0.502322222,-0.028944444,0.215233333
0.438,0.068425,0.0504125
0.352877778,0.093288889,0.168044444
0.335525,0.081,0.11265
0.3445625,0.0378125,0.01905
0.516088889,0.038544444,0.073888889
0.804911111,0.125133333,0.292544444
0.9978375,0.1798375,0.4249625
1.132922222,0.166077778,0.478377778
1.281485714,0.069828571,0.459528571
1.43762,0.00278,0.40814
1.37655,0.0514125,0.3356375
1.104455556,0.115888889,0.2184
0.9431625,0.1097,0.078225
0.914528571,0.092114286,-0.016214286
1.02495,0.1233,0.09835
1.401525,0.25605,0.4177
1.679266667,0.359155556,0.823511111
1.475311111,0.319422222,1.150722222
0.942025,0.09365,0.8801875
0.682871429,-0.091242857,0.517314286
0.53098,-0.07191,0.21869
0.460288889,0.049688889,0.037277778
0.4697625,0.13295,-0.069525
0.481657143,0.162328571,-0.092942857
0.53919,0.16255,-0.02319
0.6348,0.116366667,0.091133333
0.720725,0.146975,0.2245375
0.756183333,0.198983333,0.370283333
0.766036364,0.198118182,0.539272727
0.74666,0.13182,0.64652
0.815358333,0.067366667,0.656166667
1.2558,0.114366667,0.618655556
1.616325,0.115675,0.102225
1.634788889,0.020533333,0.377822222
2.0823125,0.0309,0.0915125
2.087655556,0.029655556,0.135211111
1.5630625,-0.1354375,0.3627
1.200844444,-0.199388889,0.398677778
1.2011375,-0.0964125,0.3163125
1.246555556,-0.028788889,0.357655556
1.149728571,0.004842857,0.426
0.9793,0.034,0.438844444
0.8827,0.038766667,0.393055556
0.860222222,0.066966667,0.2974
0.8398,0.1237125,0.237325
0.731611111,0.142533333,0.233011111
0.628775,0.0897875,0.2372
0.563277778,0.053066667,0.219444444
0.5373375,0.058525,0.228025
0.5983,0.0967,0.293311111
0.6795875,0.1351875,0.367275
0.7533375,0.1463625,0.42255
0.844277778,0.171511111,0.408544444
0.8736375,0.186975,0.38875
0.8367625,0.1700625,0.4311625
0.83072,0.16302,0.46423
0.8646125,0.1679,0.431675
0.814111111,0.170133333,0.468844444
0.71265,0.1321,0.6067375
0.978811111,0.093733333,0.5591
1.348,0.122271429,-0.005328571
1.49384,0.19884,-0.16075
1.6889,0.2137125,-0.146825
1.807422222,0.266022222,-0.078277778
1.623857143,0.286042857,0.229514286
1.10042,0.23981,0.54491
0.7509,0.1027375,0.4731
0.7735125,0.0288875,0.3882875
0.909255556,-0.080666667,0.328444444
0.970033333,-0.052744444,0.184811111
0.9299,0.077575,0.199375
0.873988889,0.197933333,0.281744444
0.7997125,0.2361875,0.3013875
0.741711111,0.174788889,0.246122222
0.716925,0.091925,0.22055
0.701855556,0.037588889,0.190655556
0.714975,0.050975,0.18035
0.745775,0.1002625,0.224
0.732266667,0.140011111,0.264322222
0.694766667,0.1328,0.287266667
0.65232,0.10409,0.2836
0.66572,0.1061,0.25665
0.7273125,0.1746375,0.22145
0.7894,0.244625,0.208825
0.82455,0.2635,0.186475
0.837469231,0.252615385,0.242353846
0.764144444,0.217944444,0.424422222
0.736755556,0.245,0.582111111
0.789657143,0.338685714,0.707514286
0.98661,0.37944,0.58886
1.13615,0.288475,0.3074625
1.122422222,0.232388889,0.161444444
0.9872125,0.3797,0.2910375
0.934477778,0.485122222,0.5042
1.075175,0.2848,0.2391875
1.131775,-0.0205375,-0.06335
1.012588889,-0.0956,-0.196355556
0.907,0.0284125,-0.047825
0.9654625,0.1617,0.0832
1.229944444,0.081966667,0.533288889
1.855211111,0.093488889,0.593011111
2.141544444,0.1444,0.504655556
1.897625,0.2793375,0.594025
1.268155556,0.319933333,0.647477778
0.82214,0.16282,0.53626
0.590863636,0.0094,0.322281818
0.4909,-0.017244444,0.201
0.383133333,0.063222222,0.260777778
0.3373625,0.12015,0.2358
0.394342857,0.142428571,0.138942857
0.50967,0.13278,0.04074
0.602,0.1541125,0.0375375
0.6123,0.164555556,0.102355556
0.5847625,0.11355,0.2031375
0.589075,0.070025,0.2810875
0.61722,0.0096,0.41114
0.6467125,-0.0454375,0.4345875
0.705577778,0.006366667,0.315688889
0.768875,0.1061625,0.2994375
0.85325,0.167416667,0.319033333
0.988,0.227554545,0.366181818
1.20545,0.2668875,0.40675
1.370066667,0.257655556,0.397633333
1.405625,0.1942625,0.375775
1.387166667,0.1604,0.2854
