acc_x,acc_y,acc_z
0.854277778,0.056455556,0.610111111
0.903444444,-0.082855556,0.405977778
0.9401875,-0.1066625,0.2321125
1.02985,-0.03055,0.201475
1.090277778,-0.035,0.211344444
1.075477778,-0.051822222,0.2322
1.0426875,-0.0908875,0.2029
1.024811111,-0.144377778,0.117077778
0.9923375,-0.14225,0.0885375
0.953777778,-0.101533333,0.063644444
0.9271625,-0.0687125,0.028175
0.945033333,-0.060133333,0.071966667
1.044971429,-0.031685714,0.149642857
1.15858,0.02385,0.30252
1.2594125,0.1280375,0.604275
1.3162125,0.210925,0.6389375
1.328588889,0.149944444,0.454933333
1.2451,0.0424,0.3022
1.075736364,-0.013281818,0.216472727
0.793311111,0.002866667,0.1527
0.5784875,-0.0211625,0.1291625
0.479875,-0.0784,0.14215
0.480588889,-0.114688889,0.166388889
0.610577778,-0.059511111,0.176611111
0.7581625,0.0403,0.194775
0.9115,0.116944444,0.309044444
1.0164125,0.16775,0.4286375
1.0417125,0.219375,0.5387875
1.029311111,0.2355,0.613644444
1.025788889,0.200344444,0.610333333
1.0244625,0.081575,0.43745
1.003111111,-0.110077778,0.182388889
1.048633333,-0.1898,0.0849
1.179661538,-0.182015385,0.039569231
1.393944444,-0.260777778,0.038588889
1.3566,-0.2598,0.1320125
1.034777778,-0.282133333,0.329244444
0.782157143,-0.302685714,0.346242857
0.84557,-0.22961,0.26469
1.183355556,-0.121322222,0.371922222
1.5272625,-0.0407375,0.4473125
1.627766667,0.067366667,0.445688889
1.3585,0.1173,0.455066667
0.90384,0.06803,0.43284
0.482588889,-0.033377778,0.386766667
0.327933333,-0.086255556,0.3604
0.4163875,-0.0554,0.3298875
0.6486375,0.002425,0.3465375
0.840077778,0.019411111,0.361366667
0.96725,0.029625,0.360975
1.008955556,0.041155556,0.3363
0.9848375,0.061025,0.334525
0.953925,0.0702125,0.3600875
0.952866667,0.037911111,0.394377778
1.0004,0.015511111,0.452377778
0.992033333,0.005811111,0.568955556
0.9116375,-0.053425,0.6982625
0.9096,-0.09652,0.70274
1.041241667,-0.165766667,0.447583333
1.2187375,-0.20015,0.1391375
1.392033333,-0.172588889,0.024911111
1.466311111,-0.111622222,-0.021044444
1.394675,-0.1137375,-0.0101375
1.138255556,-0.147122222,0.101388889
0.828775,-0.143325,0.268175
0.67085,-0.1116625,0.3185625
0.736622222,-0.072544444,0.352311111
0.9667125,-0.0196625,0.343175
1.1728,-0.068888889,0.257211111
1.2589,-0.1062375,0.194225
1.171388889,-0.057566667,0.2086
0.909822222,-0.008922222,0.2746
0.685114286,-0.005928571,0.293442857
0.579122222,-0.0302,0.261522222
0.613955556,-0.047555556,0.189666667
0.7557125,-0.024425,0.14475
0.880055556,-0.007177778,0.138866667
0.955814286,0.019285714,0.161385714
1.02232,0.07184,0.21286
1.0519,0.121675,0.2875875
1.005266667,0.100633333,0.3162
0.9401875,0.03025,0.3006875
0.902171429,-0.010714286,0.283
0.885381818,-0.0093,0.275127273
0.891175,0.0124125,0.2768625
0.950466667,0.0318,0.2642
1.0310875,0.0330625,0.2491375
1.073228571,0.006457143,0.227114286
1.10812,-0.01699,0.27207
1.103266667,-0.011577778,0.425311111
1.1222625,0.011775,0.5192
1.1691125,-0.011325,0.40065
1.197171429,-0.137485714,0.261685714
1.27057,-0.21345,0.11208
1.279966667,-0.161455556,-0.014577778
1.2112125,-0.1281125,-0.0079625
1.048877778,-0.177588889,0.005222222
0.858075,-0.281525,0.0309
0.708422222,-0.388355556,0.172611111
0.735611111,-0.3386,0.266955556
0.8747,-0.2082375,0.2405625
0.976325,-0.0969,0.225325
1.0030625,-0.047575,0.242775
0.944133333,-0.017288889,0.2513
0.815988889,-0.003055556,0.270566667
0.6920125,0.0026875,0.26705
0.617855556,0.019255556,0.236944444
0.594257143,0.0517,0.2178
0.5933,0.05765,0.21324
0.5930625,0.0320375,0.2064625
0.596277778,-0.011555556,0.1804
0.62375,-0.0253625,0.1932
0.693688889,-0.021622222,0.246622222
0.775877778,-0.021366667,0.287777778
0.8396375,-0.0687875,0.255125
0.909325,-0.1263125,0.2448875
1.025588889,-0.129644444,0.3022
1.2024,-0.1073,0.386
1.3788875,-0.0484625,0.435625
1.4624875,-0.028625,0.485275
1.426377778,-0.0469,0.447588889
1.2834,-0.13295,0.3114875
1.118842857,-0.189342857,0.157171429
0.89424,-0.18017,0.08542
0.7717,-0.1002,0.031377778
0.709975,-0.0344625,0.032025
0.814133333,-0.038822222,0.191944444
1.0841,0.023033333,0.26075
1.420672727,0.120990909,0.208472727
1.5618125,0.14865,0.250475
1.204055556,0.0715,0.525255556
0.7423,0.0319875,0.5628
0.580233333,-0.0108,0.373711111
0.55605,-0.082675,0.1944125
0.563622222,-0.179844444,0.0485
0.556125,-0.253425,-0.005975
0.5446,-0.211577778,0.086166667
0.6064125,-0.0025625,0.328825
0.820733333,0.2947,0.575111111
1.0601125,0.350275,0.557275
1.202622222,0.247677778,0.438955556
1.2745,0.0766125,0.223325
1.27115,-0.0791375,0.0790125
1.202888889,-0.090433333,0.010166667
1.0749,-0.054388889,-0.010122222
0.9785125,-0.1711125,0.01935
0.923911111,-0.2623,0.070755556
0.906985714,-0.235542857,0.101442857
0.94691,-0.32366,0.30798
1.1715375,-0.3380125,0.5143125
1.422433333,-0.209266667,0.487966667
1.3382125,-0.124375,0.39605
1.048085714,-0.1407,0.323971429
0.81088,-0.12913,0.30821
0.698222222,-0.084788889,0.285577778
0.70295,-0.0432875,0.2655125
0.733066667,0.007622222,0.300933333
0.7617375,0.0574,0.3544625
0.797444444,0.075822222,0.337166667
0.8236875,0.0437625,0.3029
0.865955556,-0.032822222,0.289888889
0.9183125,-0.0825,0.2650625
1.014522222,-0.104533333,0.245533333
1.11645,-0.08565,0.3060625
1.177277778,-0.084788889,0.362166667
1.183225,-0.116275,0.324775
1.169033333,-0.188777778,0.216344444
1.1687375,-0.2455375,0.1062625
1.165711111,-0.230966667,0.0837
1.0969875,-0.1815,0.1339625
0.996155556,-0.134466667,0.133066667
0.908975,-0.1295625,0.147475
0.948022222,-0.078633333,0.199511111
1.1025625,-0.0051875,0.2359125
1.182677778,0.047111111,0.310744444
1.0896,0.0756375,0.376325
0.891933333,0.0591,0.406988889
0.8052625,0.0349375,0.335725
0.808844444,-0.005044444,0.174255556
0.842088889,-0.035566667,0.027366667
0.8424875,-0.001525,-5.00E-05
0.8249,0.0406,0.1031625
0.8004375,0.0803,0.2313625
0.79634,0.0884,0.29083
0.8371875,0.12745,0.3060625
0.9279125,0.200375,0.38065
1.0694,0.186555556,0.416522222
1.134771429,0.0937,0.342571429
1.06374,-0.11277,0.13665
0.9280625,-0.244825,-0.0167875
0.873177778,-0.153433333,-0.064233333
0.869625,-0.0984875,-0.0399625
0.9239,-0.146766667,0.021922222
0.9288125,-0.256275,0.1068125
0.863588889,-0.335911111,0.2363
0.886725,-0.2548,0.3060375
1.021544444,-0.110522222,0.404366667
1.164044444,0.020744444,0.556011111
1.270225,0.0995625,0.5583125
1.0854,0.015844444,0.507133333
0.8029,-0.0539375,0.4440875
0.659022222,-0.052544444,0.379522222
0.64055,-0.0061625,0.2694125
0.692825,0.0401,0.191475
0.782922222,0.077922222,0.168744444
0.9438625,0.1487375,0.316275
1.117033333,0.163811111,0.486166667
1.3431,0.0676125,0.6115125
1.424866667,0.004622222,0.6146
1.2399,-0.0184375,0.4818875
1.147877778,-0.034155556,0.172288889
1.047025,-0.1101875,0.05355
1.232855556,-0.192511111,0.014044444
1.626225,-0.1119375,-0.2080875
1.727411111,-0.024822222,-0.111644444
1.232825,0.16195,0.899775
0.816155556,0.272566667,1.053811111
0.8237125,0.0176625,0.53475
0.962744444,-0.267533333,0.070544444
1.243275,-0.257075,-0.204825
1.293866667,-0.084711111,-0.2787
1.1418125,0.0413125,-0.2077875
0.9058,-0.007644444,0.153066667
0.7166,-0.039575,0.5536
0.683166667,-0.0318,0.446555556
0.7947875,-0.0372,0.227075
0.873177778,-0.046022222,0.125766667
0.9078625,-0.0237875,0.13795
0.904722222,0.040477778,0.183555556
0.9002,0.1291625,0.2457875
0.878366667,0.166,0.293711111
0.84195,0.1533,0.3090375
0.847922222,0.107722222,0.267877778
0.881475,0.0460375,0.219375
0.951722222,0.005422222,0.210966667
1.0465125,-0.0311,0.165275
1.159766667,-0.093288889,0.129577778
1.31515,-0.1235,0.0867875
1.442611111,-0.105633333,0.005066667
1.393025,-0.1689125,0.0797
1.200377778,-0.290555556,0.255411111
1.033875,-0.36335,0.394275
0.970633333,-0.263622222,0.400255556
1.01265,-0.111925,0.324325
1.0448,-0.040922222,0.267122222
1.0300875,0.0078,0.212825
0.957244444,-0.004211111,0.160988889
0.88535,-0.0282375,0.1241875
0.822688889,-0.006466667,0.1667
0.742925,-0.013275,0.253475
0.661588889,-0.030877778,0.335733333
0.64005,-0.0381625,0.381925
0.680075,-0.0325625,0.3605625
0.7917,-0.0203,0.319944444
0.9255875,-0.0088125,0.285325
1.028288889,-0.010766667,0.235755556
1.0772,-0.044044444,0.178155556
1.078571429,-0.082671429,0.146442857
1.01654,-0.1379,0.20398
0.9217875,-0.1581875,0.299375
0.859633333,-0.165033333,0.328166667
0.91865,-0.1747125,0.2416375
1.066111111,-0.148522222,0.132577778
1.142225,-0.07105,0.0785875
1.160975,6.25E-05,0.09405
1.096011111,0.019722222,0.109855556
1.004733333,0.068122222,0.193611111
0.9984875,0.103925,0.30425
1.072477778,0.064822222,0.363844444
1.1841125,0.0611375,0.294775
1.198711111,0.040022222,0.218288889
0.9987,0.0062875,0.2244875
0.749622222,-0.014933333,0.2125
0.602425,-0.0313125,0.169275
0.519075,-0.0465,0.1072875
0.492677778,-0.0697,0.055211111
0.586333333,-0.062133333,0.029355556
0.7337,-0.018025,0.055975
0.829288889,0.044722222,0.130455556
0.8744125,0.083275,0.247975
0.922588889,0.143788889,0.377311111
0.9374375,0.1777,0.4931
0.926211111,0.161666667,0.4618
0.932525,0.0294875,0.3126
0.9281125,-0.094625,0.1073625
0.946177778,-0.113433333,-0.085477778
0.925144444,-0.030377778,-0.100866667
0.82845,0.02365,0.0065
0.7718,-0.021375,0.081625
0.758615385,-0.128638462,0.085653846
0.851944444,-0.240277778,0.095844444
1.0010625,-0.251925,0.282175
1.27905,-0.1220875,0.48655
1.438175,-0.0120125,0.5631
1.324255556,0.011544444,0.487211111
1.055022222,-0.045188889,0.450055556
0.920633333,-0.071022222,0.432077778
0.910028571,-0.023985714,0.377057143
0.85965,0.0194,0.36679
0.7931125,0.025775,0.34975
0.754622222,0.0082,0.370977778
0.77075,0.010775,0.3477125
0.885111111,0.042211111,0.2625
1.0574875,0.0282875,0.181825
1.196888889,-0.008666667,0.167344444
1.1819375,-0.0614875,0.15345
1.098511111,-0.074855556,0.099088889
1.0810625,-0.0387875,0.0372625
1.108633333,0.0109,-0.019977778
1.2311375,0.0164375,0.046475
1.582722222,0.083688889,0.121266667
1.7708125,0.1107375,0.4425875
1.494966667,0.081233333,0.711544444
1.0362375,0.02905,0.567575
0.801222222,0.016811111,0.325744444
0.71675,0.0128,0.2254875
0.646877778,-0.041322222,0.173744444
0.6155125,-0.081925,0.0935125
0.566488889,-0.064855556,0.013466667
0.530825,0.02045,-0.002
0.5868875,0.0989875,0.0477875
0.697777778,0.142566667,0.156433333
0.820544444,0.202111111,0.2874
0.928214286,0.237328571,0.303771429
0.998855556,0.109455556,0.264288889
1.029688889,-0.097877778,0.082088889
0.966888889,-0.241866667,-0.078644444
0.9094625,-0.196575,-0.041825
0.899071429,-0.133914286,0.0432
0.92459,-0.13422,0.14141
1.049255556,-0.253044444,0.232033333
1.1688375,-0.2989125,0.1862625
1.243,-0.286222222,0.262744444
1.336283333,-0.16945,0.503866667
1.30645,-0.00879,0.5332
1.171477778,0.0272,0.335622222
0.979755556,-0.041877778,0.332311111
0.867125,-0.0209,0.3363875
0.85855,-0.005966667,0.320483333
0.889345455,0.062390909,0.264245455
0.87045,0.1256875,0.2391625
0.796144444,0.120977778,0.326911111
0.801055556,0.0807,0.408111111
0.924471429,0.008171429,0.400871429
1.1465,-0.046555556,0.327822222
1.313944444,-0.088011111,0.305266667
1.356766667,-0.094822222,0.354566667
1.280075,-0.1295125,0.2892375
1.18922,-0.15718,0.2008
1.0484,-0.188225,0.091433333
0.914633333,-0.215044444,-0.037577778
0.8569125,-0.1687125,-0.1262
0.816388889,-0.107455556,-0.0521
0.8993375,-0.0357875,0.1081625
1.0496875,0.0418625,0.18555
1.184577778,0.060577778,0.298122222
1.255988889,0.092211111,0.4317
1.1586625,0.092075,0.4408125
0.95825,0.023725,0.370825
0.777244444,-0.035755556,0.292377778
0.647925,-0.074925,0.21025
0.559977778,-0.083933333,0.144644444
0.5114375,-0.08445,0.1085125
0.5673125,-0.0532625,0.110175
0.721911111,0.025388889,0.1423
0.931033333,0.140177778,0.281855556
1.113033333,0.2239,0.439055556
1.118925,0.1199875,0.3647875
1.0724,-0.049757143,0.192585714
0.95176,-0.19065,0.05882
0.765066667,-0.162322222,-0.014444444
0.619975,-0.142525,0.0347625
0.591677778,-0.173066667,0.095766667
0.651933333,-0.252166667,0.171516667
0.858727273,-0.240472727,0.1148
1.0404375,-0.172625,0.197375
1.3463,-0.1076125,0.4609875
1.7822,0.0522875,0.7692125
1.9651,0.1456,0.879788889
1.662755556,0.067044444,0.6013
1.125575,-0.116475,0.4746
0.662433333,-0.203944444,0.4866
0.462255556,-0.186144444,0.429466667
0.3842,-0.152357143,0.265257143
0.39017,-0.15378,0.12835
0.5806625,-0.111125,0.1028875
0.8723125,-0.060975,0.190675
1.186266667,0.029633333,0.289066667
1.39008,0.09566,0.3767
1.388,0.080633333,0.35485
1.1556,-0.027075,0.2612375
1.047888889,-0.035311111,0.159222222
1.065,0.01605,-0.0065
1.0424,0.01014,0.02476
1.095341667,0.035816667,0.179233333
1.377477778,0.082333333,0.271977778
1.568475,0.109775,0.421125
1.262677778,0.047855556,0.619255556
0.758985714,-0.005742857,0.716142857
0.54756,0.01487,0.68247
0.6434,-0.068775,0.3793375
0.724266667,-0.137544444,0.053388889
0.749444444,-0.060922222,-0.058611111
0.6657,0.086471429,-0.008485714
0.569844444,0.224733333,0.126522222
0.594122222,0.230188889,0.305988889
0.6981,0.1908875,0.2979375
0.8398,0.106477778,0.192033333
0.962285714,0.0543,0.281771429
1.10535,0.15195,0.53455
1.2252125,0.2723,0.6849125
1.253155556,0.254066667,0.542144444
1.160333333,0.064244444,0.402333333
1.080233333,-0.069383333,0.34375
1.08619,-0.12323,0.29722
1.131355556,-0.103688889,-0.096922222
0.921811111,-0.202,-0.278711111
0.9746875,-0.238775,-0.2440625
1.207816667,-0.184633333,-0.261333333
1.329109091,-0.169409091,-0.039627273
1.25355,-0.1848375,0.3003
1.271555556,-0.178355556,0.483655556
1.4480625,-0.117475,0.433825
1.5984,-0.07585,0.398883333
1.528081818,-0.091427273,0.351754545
1.228888889,-0.152666667,0.305666667
0.9173,-0.180333333,0.321611111
0.7647375,-0.1665625,0.3470125
0.7449375,-0.111275,0.304175
0.785166667,-0.065577778,0.265944444
0.841733333,-0.015344444,0.278788889
0.9025625,0.0565875,0.339825
0.9170125,0.106,0.3833625
0.8696,0.1004,0.39148
0.735083333,0.021333333,0.3359
0.628444444,-0.055077778,0.256011111
0.6245875,-0.0655875,0.2172125
0.641811111,-0.078133333,0.1842
0.65265,-0.0835125,0.21035
0.627688889,-0.071033333,0.300644444
0.651822222,-0.044088889,0.441555556
0.7705,-0.017275,0.5807625
0.9119625,-0.02555,0.6563875
1.081885714,-0.1639,0.385928571
1.222025,-0.2294875,-0.089875
1.330309091,-0.214754545,-0.178281818
1.5190625,-0.222075,-0.13305
1.770844444,-0.1812,-0.150166667
1.986925,-0.175925,0.04125
1.623555556,-0.116622222,0.5481
1.100675,-0.084425,0.52465
0.947333333,-0.153911111,0.3573
0.9719125,-0.313125,0.19395
1.004366667,-0.397944444,0.0429
0.915688889,-0.368788889,0.063144444
0.835475,-0.1874625,0.2147375
0.8019625,-0.0790125,0.2643125
0.802222222,-0.048766667,0.189211111
0.8202,-0.04446,0.09308
0.8274,-0.031808333,0.02925
0.8029375,-0.0205875,0.0574625
0.781344444,-0.023255556,0.125333333
0.7563875,-0.0305,0.1585
0.719266667,-0.046333333,0.182066667
0.661718182,-0.086045455,0.173827273
0.581066667,-0.136833333,0.115877778
0.5844,-0.1274,0.04505
0.679177778,-0.058477778,0.014566667
0.75864,-0.0224,0.0585
0.790716667,-0.054866667,0.1548
0.7970375,-0.10475,0.2499
0.874411111,-0.067066667,0.278833333
1.0405875,0.00815,0.2999
1.1698375,0.057625,0.439375
1.183377778,0.042511111,0.688488889
1.134177778,0.080144444,0.580677778
1.1305,0.072,0.4245375
1.117055556,0.016022222,0.346988889
1.093514286,-0.0274,0.325642857
1.05347,-0.00646,0.32015
1.0121,-0.1021125,0.091325
1.0349,-0.275444444,-0.128388889
1.0922,-0.242675,-0.2238125
1.129588889,-0.214566667,-0.270555556
1.1168,-0.312225,-0.059475
1.292111111,-0.519377778,0.170066667
1.480275,-0.5863375,0.2060375
1.348544444,-0.375744444,0.374033333
1.05975,-0.1434375,0.424325
0.859944444,-0.093411111,0.369177778
0.8220375,-0.156775,0.276675
0.946111111,-0.191055556,0.087
1.08095,-0.116625,0.0157625
1.2041625,-0.03305,0.280075
1.040844444,0.071811111,0.426288889
0.760444444,0.051044444,0.257544444
0.560425,-0.0346375,0.152025
0.4319,-0.091411111,0.135166667
0.395233333,-0.1447,0.146916667
0.469290909,-0.159836364,0.188181818
