acc_x,acc_y,acc_z
1.007377778,-0.047755556,0.0179
1.006622222,-0.042366667,0.015322222
1.0044625,-0.0413,0.0176875
1.004133333,-0.046266667,0.020122222
1.002344444,-0.0481,0.018722222
1.001411111,-0.048722222,0.017822222
1.0064,-0.046125,0.0181875
1.0076375,-0.0451,0.0164125
1.006011111,-0.042377778,0.019888889
1.0060625,-0.0452125,0.0199
1.002644444,-0.047722222,0.015822222
1.003933333,-0.049933333,0.022788889
1.005042857,-0.050285714,0.021242857
1.006033333,-0.046322222,0.019233333
1.00637,-0.04019,0.01374
1.00355,-0.042975,0.0181625
1.0043875,-0.048175,0.019925
1.004022222,-0.0495,0.0207
1.004925,-0.0478,0.0212125
1.004566667,-0.046222222,0.018777778
1.0070625,-0.048475,0.0213625
1.006922222,-0.046544444,0.018233333
1.004575,-0.042725,0.0179125
1.0047,-0.0452,0.016288889
1.003077778,-0.045666667,0.019933333
1.0104375,-0.045075,0.0184625
1.005333333,-0.053777778,0.020555556
1.0005125,-0.04475,0.0159125
1.003633333,-0.0435,0.014366667
1.0099375,-0.04515,0.018775
1.007622222,-0.044922222,0.018722222
1.0053375,-0.0464,0.0228125
1.0028,-0.048,0.018225
1.007633333,-0.047522222,0.014944444
1.002177778,-0.045422222,0.013244444
1.000525,-0.0443875,0.0143875
1.004722222,-0.041488889,0.011455556
1.0057125,-0.0424,0.0128625
1.002455556,-0.048166667,0.015744444
1.0048375,-0.04755,0.0121
1.006355556,-0.046988889,0.012977778
0.999633333,-0.047633333,0.006155556
1.006577778,-0.049566667,0.014933333
1.01195,-0.048825,0.0044625
1.004125,-0.040725,-0.004175
1.001133333,-0.036544444,-0.011488889
1.004766667,-0.046311111,0.007644444
1.0031,-0.0504,0.001457143
1.004225,-0.04435,0.0013
1.0048,-0.048114286,0.001571429
1.00676875,-0.04698125,0.00054375
1.0030625,-0.0396875,-0.010225
1.003355556,-0.044655556,-0.001366667
1.0053375,-0.04725,-0.0042375
1.006788889,-0.043333333,-0.007577778
1.00295,-0.0446,0.00195
1.005333333,-0.045033333,0.003366667
1.0068125,-0.0457125,-0.001675
1.006777778,-0.0457,-0.006877778
1.003925,-0.0427875,-0.00155
1.0027,-0.044875,-0.004075
1.004244444,-0.045266667,-0.001355556
1.006111111,-0.046544444,0.002844444
1.0101,-0.045475,-0.0001875
1.003077778,-0.0457,-0.0055
0.999425,-0.044575,-0.0068875
1.003433333,-0.044622222,-0.002388889
1.0061875,-0.0420125,-0.002
1.007777778,-0.040877778,-0.006688889
1.006675,-0.0452375,-0.0009375
1.00505,-0.0459625,-0.0016375
1.000566667,-0.045244444,-0.001377778
1.0034,-0.04625,-0.004325
1.006125,-0.048225,-0.000275
1.00445,-0.04103,-0.00299
1.00655,-0.037825,-0.003925
1.0088,-0.0426375,-0.00125
1.006811111,-0.046388889,-0.001888889
0.999,-0.048077778,-0.002933333
0.9983375,-0.0457875,-0.0011875
1.004275,-0.0438875,-0.0011
1.006511111,-0.040033333,0.000522222
1.0078,-0.042055556,0.004688889
1.0059,-0.048425,0.0069875
1.004275,-0.0504875,0.005
1.003255556,-0.046788889,0.004544444
1.0019875,-0.04495,0.00165
1.007111111,-0.044588889,0.005666667
1.006788889,-0.043033333,0.003388889
1.0049625,-0.04385,0.0048875
1.005075,-0.047125,0.006775
1.005884615,-0.048084615,0.007223077
1.003788889,-0.048933333,0.008711111
1.00145,-0.0456875,0.0047875
1.002888889,-0.045711111,0.004755556
1.0045,-0.044625,0.00345
1.004666667,-0.044544444,0.0054
1.0065625,-0.046425,0.0090375
1.0062,-0.048122222,0.009577778
1.002144444,-0.047266667,0.008922222
1.0066875,-0.0477125,0.0102
1.006875,-0.0478875,0.0100875
1.004566667,-0.045822222,0.007622222
1.0046375,-0.0440375,0.0050375
1.004477778,-0.0498,0.009533333
1.0003375,-0.048625,0.0037375
0.999477778,-0.041544444,0.002055556
1.001266667,-0.0407,0.003
1.007875,-0.0505375,0.0081375
1.008666667,-0.050655556,0.013388889
1.0055875,-0.0517375,0.0135375
1.0041,-0.050288889,0.012055556
1.0044125,-0.0509625,0.0111125
1.004144444,-0.0508,0.010211111
1.005575,-0.0466625,0.00515
1.004755556,-0.0489,0.010822222
1.0025625,-0.0474875,0.01065
1.004225,-0.0450625,0.0054
1.00728,-0.04532,0.00787
1.005725,-0.0485125,0.00845
1.0034625,-0.0515,0.0087
1.006177778,-0.049033333,0.010155556
1.003277778,-0.048077778,0.010522222
1.0035625,-0.0463875,0.0084375
1.004866667,-0.047088889,0.008233333
1.0056375,-0.0492,0.0134875
1.007122222,-0.051611111,0.010966667
1.0061125,-0.050775,0.01255
1.004433333,-0.047222222,0.012622222
1.005833333,-0.048022222,0.011677778
1.0070625,-0.0501875,0.010975
1.005,-0.050311111,0.008644444
1.0020625,-0.04685,0.0064
1.005575,-0.0462,0.008475
1.004177778,-0.050866667,0.009333333
1.0007,-0.048066667,0.003766667
1.000088889,-0.045711111,0.004055556
1.0024125,-0.046975,0.004225
1.0079,-0.0458375,0.0042875
1.0057,-0.0492,0.0074
1.005966667,-0.045577778,0.006611111
1.003825,-0.0476875,0.0078125
1.004633333,-0.048088889,0.000922222
1.0043375,-0.0460625,0.0015125
1.005055556,-0.046155556,0.001977778
1.007266667,-0.047166667,0.004988889
1.005771429,-0.046628571,-0.000842857
1.0052,-0.045177778,-0.000288889
1.0051,-0.045588889,-0.000511111
1.005777778,-0.045255556,-0.007411111
1.0041,-0.0452625,-0.000775
1.00245,-0.0441625,-0.0050625
1.000677778,-0.043577778,-0.006488889
0.999125,-0.044575,-0.0120375
1.004066667,-0.041277778,-0.0099
1.0074875,-0.043725,-0.007325
1.0052,-0.043188889,-0.006166667
1.0021625,-0.044925,-0.009275
1.00442,-0.04503,-0.00859
1.004225,-0.04215,-0.01255
1.001744444,-0.043455556,-0.006366667
1.001642857,-0.0447,-0.0094
1.007677778,-0.043222222,-0.005655556
1.01,-0.043355556,-0.008766667
1.0058375,-0.0436625,-0.006575
1.002966667,-0.045433333,-0.007077778
1.00305,-0.0461125,-0.0066125
1.0048375,-0.04425,-0.00945
1.00381,-0.04375,-0.01224
1.006385714,-0.040542857,-0.0112
1.0053,-0.04286,-0.00798
1.001175,-0.0432875,-0.0098875
1.005333333,-0.046033333,-0.008266667
1.004,-0.04535,-0.0081125
1.003666667,-0.041044444,-0.013288889
1.0034375,-0.04145,-0.0117
1.004775,-0.04325,-0.0094125
1.00607,-0.04348,-0.00927
1.0052,-0.040975,-0.0111125
1.00835,-0.0442,-0.007225
1.002144444,-0.045255556,-0.009477778
1.001733333,-0.0439,-0.010244444
1.005675,-0.041925,-0.0098
1.0064625,-0.03985,-0.011375
1.00405,-0.0404,-0.00893
1.005175,-0.044825,-0.0089625
1.001342857,-0.043742857,-0.0116
1.00459,-0.03863,-0.0109
1.005925,-0.0398375,-0.014775
1.005155556,-0.043766667,-0.0081
1.004033333,-0.043233333,-0.012066667
0.9994125,-0.0386125,-0.0107125
1.004022222,-0.040288889,-0.012177778
1.009416667,-0.044683333,-0.007816667
1.00853,-0.04409,-0.00518
1.00665,-0.04075,-0.00776
1.0022625,-0.0409875,-0.009825
1.0031375,-0.042925,-0.0098625
1.0001,-0.043522222,-0.0141
1.0019,-0.039788889,-0.012511111
1.0059375,-0.040925,-0.0093125
1.006125,-0.0413125,-0.00525
1.007566667,-0.041677778,-0.009255556
1.006922222,-0.044655556,-0.004666667
0.9981125,-0.0442125,-0.00435
1.009522222,-0.044688889,-0.010888889
1.008825,-0.0391,-0.00745
1.000933333,-0.036277778,-0.011011111
1.007766667,-0.040855556,-0.014588889
1.0056,-0.0424625,0.0009125
1.0049,-0.041266667,-0.007355556
1.0053625,-0.045525,-0.0079625
1.0014,-0.042911111,-0.001077778
0.9988375,-0.0399625,-0.0154625
0.999633333,-0.037255556,-0.0112
1.0047375,-0.04015,-0.00775
1.008644444,-0.038811111,-0.004066667
1.005044444,-0.039366667,-0.002333333
1.00195,-0.042175,-0.0084625
1.001677778,-0.042377778,-0.001933333
1.008975,-0.0380875,-0.0085875
1.009866667,-0.038522222,-0.0061
1.0057875,-0.0395875,-0.0087
1.000622222,-0.037877778,-0.01
1.00115,-0.0397375,-0.0056125
1.004411111,-0.042477778,-0.0022
1.0078,-0.041755556,-0.004322222
1.005075,-0.0392125,-0.007075
1.00325,-0.0367625,-0.0032125
1.005,-0.039977778,-0.007511111
1.006,-0.039888889,-0.005822222
1.0040625,-0.0415625,-0.0045
1.002744444,-0.039966667,-0.004733333
1.0030875,-0.0423875,-0.0043375
1.006275,-0.0401875,-0.005275
1.006344444,-0.037722222,-0.006177778
1.005566667,-0.039844444,-0.005988889
1.008625,-0.0384,-0.0078625
1.001988889,-0.0403,-0.007466667
0.9998875,-0.04065,-0.0085875
1.005111111,-0.039944444,-0.003922222
1.005975,-0.0404375,-0.007725
1.005822222,-0.0362,-0.007088889
1.0047125,-0.0398,-0.0049875
1.006444444,-0.042277778,-0.005222222
1.005822222,-0.042433333,-0.005533333
1.005175,-0.0384,-0.00775
1.0012,-0.038775,-0.0083875
1.004211111,-0.039488889,-0.006788889
1.004611111,-0.040444444,-0.005211111
1.0052625,-0.0410625,-0.007975
1.005144444,-0.039222222,-0.007522222
1.0023375,-0.0418125,-0.0059125
1.0020375,-0.0407,-0.0069875
1.00261,-0.03991,-0.01076
1.006225,-0.0387875,-0.00715
1.0059,-0.038425,-0.0086
1.005077778,-0.040533333,-0.005488889
1.0054875,-0.04045,-0.0057125
1.002733333,-0.042988889,-0.0027
1.0074625,-0.041925,-0.0046125
1.004777778,-0.039011111,-0.007722222
1.004688889,-0.037844444,-0.007088889
1.0045625,-0.0381125,-0.0033625
1.005422222,-0.037522222,-0.005166667
1.008625,-0.040475,-0.0026125
1.007933333,-0.046077778,-0.001422222
1.005066667,-0.041577778,-0.002277778
1.0040875,-0.03925,-0.005375
1.005575,-0.036725,-0.00655
1.002788889,-0.040566667,-0.008955556
0.997644444,-0.038255556,-0.011711111
1.002011111,-0.0364,-0.009788889
1.003857143,-0.033942857,-0.009385714
1.005422222,-0.034088889,-0.009288889
1.007422222,-0.042222222,0.000255556
1.007633333,-0.042533333,0.001322222
1.0057125,-0.0422625,-0.0057125
1.0043125,-0.0453375,-0.008475
0.999555556,-0.037388889,-0.011777778
1.0001125,-0.0344625,-0.0106125
1.001277778,-0.033322222,-0.007044444
1.005425,-0.0354,-0.0074375
1.007233333,-0.039144444,-0.0047
1.008055556,-0.0429,-0.002322222
1.0064875,-0.0420875,0.0007625
1.007188889,-0.041122222,0.003833333
1.0103375,-0.0431375,0.00245
1.007633333,-0.038422222,-0.002855556
1.0047,-0.0376375,-0.0072625
1.001311111,-0.038033333,-0.005344444
1.003133333,-0.0381,-0.003666667
1.0072,-0.039225,0.005425
1.0081625,-0.038575,0.0015875
1.011088889,-0.033888889,-0.001455556
1.0022,-0.039488889,0.007633333
1.004675,-0.042475,0.0071125
1.005888889,-0.044088889,0.006544444
1.012357143,-0.043771429,0.007071429
1.00504,-0.0368,0.00252
1.0024625,-0.0306125,0.0004
1.002188889,-0.033588889,-0.004333333
0.999125,-0.0331625,-0.01085
0.999275,-0.0326625,-0.009175
1.001377778,-0.031544444,-0.009877778
1.004122222,-0.032477778,-0.006955556
1.001988889,-0.0339,-0.002777778
1.0040125,-0.0355125,-0.005125
1.0058875,-0.0339125,-0.0078625
1.005111111,-0.033,-0.006311111
0.998055556,-0.035322222,-0.008633333
1.0007625,-0.0388,-0.005825
1.003022222,-0.035866667,-0.003966667
1.0055625,-0.0337875,-0.0067125
1.006622222,-0.034088889,-0.004944444
1.0070875,-0.0387375,0.001075
1.004322222,-0.037866667,-0.0022
1.007022222,-0.038244444,-0.003266667
1.0075125,-0.0377625,-0.0034875
1.0047375,-0.038325,-0.001625
1.001411111,-0.038344444,-0.003766667
1.002388889,-0.039666667,-0.001888889
1.005322222,-0.039911111,-0.003177778
1.0066125,-0.037025,-0.0043375
1.005275,-0.0379125,-0.0033875
1.009233333,-0.039033333,-0.000533333
1.009588889,-0.039611111,-0.001222222
1.0088375,-0.0411,-0.0023625
1.0037375,-0.0462375,-0.0033
1.0019,-0.046711111,-0.001344444
1.006675,-0.04365,-0.0050125
1.008144444,-0.038811111,-0.005477778
1.005811111,-0.038255556,-0.006677778
1.0060375,-0.042425,-0.0041625
1.0026875,-0.0435875,-0.00745
1.00014,-0.04507,-0.00594
1.0059,-0.042275,-0.0079375
1.0045625,-0.0423125,-0.0055
1.0057625,-0.040025,-0.009675
1.001,-0.041255556,-0.004955556
1.007022222,-0.043311111,-0.005511111
1.006511111,-0.041844444,-0.007211111
1.0037375,-0.040925,-0.0084125
1.0012875,-0.0413,-0.0052125
1.00538,-0.04237,-0.00609
1.0049375,-0.0448,-0.0061125
1.003075,-0.04465,-0.0062625
1.001622222,-0.043033333,-0.007366667
1.0054,-0.039614286,-0.008514286
1.0065,-0.04084,-0.00781
1.0045,-0.03885,-0.0082625
1.002433333,-0.039833333,-0.009466667
1.0027,-0.0415125,-0.0062
1.003155556,-0.044033333,-0.005855556
1.001922222,-0.042244444,-0.006855556
1.0018625,-0.04495,-0.009075
1.004155556,-0.044966667,-0.0027
1.002775,-0.0425625,-0.0058875
1.005166667,-0.041844444,-0.004322222
1.007788889,-0.044544444,-0.002088889
1.0035125,-0.0432125,-0.0045875
1.000775,-0.0445,-0.0039125
1.0024,-0.046011111,-0.000355556
1.002977778,-0.044744444,-0.003033333
1.00865,-0.04455,-0.0003625
1.011155556,-0.046411111,0.005777778
1.005175,-0.0508,0.0049125
1.003044444,-0.048588889,0.002344444
1.0046,-0.0482375,0.0005375
1.006966667,-0.047566667,0.000588889
1.006577778,-0.046666667,0.003077778
1.003525,-0.0486625,0.0005375
1.000744444,-0.044522222,-0.001
1.00335,-0.046875,-0.0054375
1.007088889,-0.047266667,-0.008933333
1.0029375,-0.0485,-0.00195
1.001311111,-0.048133333,-0.002133333
1.003925,-0.049725,-0.00195
1.005488889,-0.047755556,-0.004077778
1.007725,-0.0457375,-0.0052375
1.007622222,-0.051188889,-0.000511111
1.004725,-0.0496375,0.0004
1.004266667,-0.046855556,-0.007855556
1.0062375,-0.0485125,-0.0024875
1.007022222,-0.048077778,-0.007233333
1.004744444,-0.048277778,-0.003755556
1.002075,-0.0482625,-0.0042125
1.0063,-0.047233333,-0.005355556
1.0071875,-0.0473875,-0.0060875
1.004444444,-0.043944444,-0.006577778
1.003511111,-0.044233333,-0.0045
1.006425,-0.048,-0.0029875
1.0039875,-0.047925,-0.0072625
1.000977778,-0.045966667,-0.009422222
1.003977778,-0.042955556,-0.004577778
1.0071625,-0.0453125,-0.0070125
1.003188889,-0.044688889,-0.004555556
1.00105,-0.0460375,-0.008275
1.004522222,-0.046022222,-0.003255556
1.0078,-0.0432625,-0.002875
1.007655556,-0.043088889,-0.008888889
1.007575,-0.045075,-0.0066875
1.003377778,-0.043088889,-0.0072
0.9972,-0.043371429,-0.009228571
0.99847,-0.04087,-0.01516
1.0037625,-0.0448875,-0.007775
1.003977778,-0.042755556,-0.011855556
1.0049625,-0.0413,-0.00915
1.002088889,-0.041688889,-0.008611111
1.007177778,-0.045855556,-0.008244444
1.005225,-0.0448375,-0.006725
1.0023,-0.0424125,-0.0065125
1.001422222,-0.043344444,-0.011111111
1.004588889,-0.043733333,-0.008222222
1.007625,-0.04255,-0.0105
1.005911111,-0.041444444,-0.007511111
1.0045125,-0.0433375,-0.0084625
1.0057,-0.044577778,-0.006955556
0.9998875,-0.0442375,-0.0118625
1.000822222,-0.042344444,-0.010633333
1.0073875,-0.0421875,-0.00725
1.011566667,-0.041055556,-0.009088889
1.008066667,-0.041522222,-0.005366667
1.000428571,-0.043928571,-0.007585714
0.999611111,-0.043844444,-0.008266667
0.999725,-0.0460875,-0.01535
1.0028,-0.04264,-0.00703
1.0038875,-0.03585,-0.0138625
1.003444444,-0.038066667,-0.011444444
1.0040375,-0.04105,-0.007725
1.005122222,-0.046122222,-0.005033333
1.006622222,-0.046422222,-0.006
1.0051125,-0.0471875,-0.0053125
1.0026375,-0.0459375,-0.0070375
1.003988889,-0.040366667,-0.008166667
1.0056,-0.041844444,-0.006633333
1.0059,-0.0435375,-0.0093375
1.0057125,-0.0441625,-0.0058
1.004577778,-0.045711111,-0.006266667
1.004911111,-0.043711111,-0.005766667
1.0075125,-0.0464,-0.0043
1.003966667,-0.0424,-0.005033333
1.0041625,-0.043975,-0.0080375
1.004722222,-0.043188889,-0.005722222
1.00715,-0.0435,-0.0048875
1.004377778,-0.043988889,-0.008288889
1.0001,-0.0428375,-0.00615
1.0009,-0.041077778,-0.007633333
1.0065,-0.04215,-0.0082125
1.008277778,-0.042111111,-0.004644444
1.005033333,-0.0435,-0.0041
1.0048375,-0.0456,-0.0018875
1.0083,-0.0453,-0.001877778
1.007125,-0.0456125,-0.001525
1.003733333,-0.043333333,-0.0036
1.006425,-0.044375,-0.006575
1.004866667,-0.044188889,-0.003055556
1.004525,-0.044775,-0.0037375
1.002011111,-0.0445,-0.006233333
1.006455556,-0.039866667,-0.008511111
1.008125,-0.0381,-0.0069375
1.008725,-0.03965,-0.005525
1.0094,-0.0448,-0.0014
1.0007,-0.0446125,-0.0076
1.0020625,-0.0420125,-0.008275
1.005333333,-0.040777778,-0.011122222
1.003225,-0.035025,-0.016525
1.002366667,-0.033511111,-0.016288889
1.00145,-0.0344875,-0.0144875
1.000022222,-0.034788889,-0.018911111
0.9982,-0.038075,-0.0172125
1,-0.039288889,-0.016244444
1.0039,-0.038322222,-0.011944444
1.0039375,-0.034875,-0.0156625
1.003622222,-0.036477778,-0.013577778
1.0054125,-0.0369125,-0.0123125
1.005977778,-0.035288889,-0.012177778
1.004375,-0.0353875,-0.0153375
1.004755556,-0.034977778,-0.015055556
1.0055,-0.0404125,-0.0112375
1.003344444,-0.039911111,-0.008533333
1.003025,-0.0363125,-0.0141
1.004555556,-0.037055556,-0.016633333
1.003255556,-0.0382,-0.013744444
1.0029625,-0.033425,-0.0178
1.003833333,-0.033777778,-0.015822222
1.0049875,-0.035275,-0.0117
1.003011111,-0.037411111,-0.015422222
0.9998625,-0.0370125,-0.0136625
1.004866667,-0.039177778,-0.014666667
0.999955556,-0.036588889,-0.013911111
0.996275,-0.0368375,-0.0164375
0.9963375,-0.035725,-0.01855
0.997825,-0.0385625,-0.0196125
0.99895,-0.04018,-0.01508
1.0048375,-0.0407,-0.0105875
1.008188889,-0.038288889,-0.006977778
1.0090375,-0.04185,-0.0056
1.006975,-0.0458125,0.0013125
1.00739,-0.04774,-0.00155
