acc_x,acc_y,acc_z
1.03045,0.055525,0.309075
1.070611111,0.042744444,0.265311111
1.1060875,0.0129125,0.2240875
1.138657143,-0.017485714,0.203357143
1.14771,-0.0651,0.19531
1.123344444,-0.133733333,0.206688889
1.1035375,-0.184925,0.210375
1.028622222,-0.229022222,0.227266667
0.9556125,-0.250525,0.25415
0.901155556,-0.268222222,0.301233333
0.83645,-0.3292875,0.306125
0.805,-0.326455556,0.3049
0.82645,-0.3515875,0.3162
0.829444444,-0.216344444,0.3561
0.9016375,-0.08385,0.407725
0.936822222,-0.0056,0.373544444
0.9947625,0.024825,0.339425
1.028133333,0.0226,0.301333333
1.0168125,0.0011625,0.2673625
0.954825,-0.06005,0.2461375
0.832744444,-0.1336,0.2476
0.757125,-0.164475,0.2877125
0.7213,-0.165322222,0.348744444
0.6791,-0.168071429,0.402042857
0.67669,-0.1424,0.42722
0.729222222,-0.100855556,0.464911111
0.7820625,-0.0668125,0.5154375
0.857033333,-0.053933333,0.516677778
0.952925,-0.0348375,0.51645
1.023477778,0.005677778,0.488288889
1.0417,0.0263625,0.4347375
1.0607,0.041625,0.3908
1.045511111,0.038533333,0.425066667
1.0694,-0.021333333,0.4828
1.18785,-0.1507375,0.4018375
1.28935,-0.270625,0.289775
1.226888889,-0.303911111,0.216022222
1.1327,-0.242577778,0.222211111
1.141516667,-0.2157,0.23245
1.111463636,-0.132654545,0.252936364
0.911,-0.113125,0.3125625
0.663333333,-0.157877778,0.265511111
0.56195,-0.1972875,0.13525
0.6228125,-0.184625,0.0703125
0.753055556,-0.136022222,0.035955556
0.879611111,-0.149688889,0.014155556
0.9790125,-0.1642125,0.0082625
1.126022222,-0.136244444,0.017077778
1.232914286,-0.119028571,0.078457143
1.15494,-0.1363,0.22337
0.9252375,-0.1544,0.4103125
0.770875,-0.1656375,0.48125
0.757855556,-0.134211111,0.399344444
0.852188889,-0.073588889,0.288988889
0.927825,-0.0213375,0.2194625
0.9638,0.017511111,0.171488889
0.9721,0.036475,0.165675
0.998788889,0.039977778,0.202122222
1.0288125,0.016275,0.2602
1.018122222,-0.034466667,0.308177778
1.0065,-0.0740875,0.355825
0.996177778,-0.092822222,0.407422222
1.008675,-0.061925,0.4259
1.059444444,-0.040977778,0.381822222
1.1461875,-0.049725,0.3113
1.251922222,-0.098055556,0.200055556
1.2883625,-0.164,0.095075
1.337733333,-0.221422222,-0.002311111
1.309542857,-0.225714286,-0.064614286
1.11215,-0.28029,-0.01772
0.8932,-0.388825,0.1468375
0.7070125,-0.4556125,0.3826625
0.585933333,-0.450688889,0.6245
0.6368,-0.358,0.682457143
0.83034,-0.1988,0.51309
0.946055556,0.090233333,0.3373
0.9731,0.202125,0.239175
0.9384875,0.148,0.201025
0.9416,0.0697125,0.1737625
0.98599,0.04516,0.18788
1.0129,0.03375,0.2565875
0.862366667,-0.094944444,0.323644444
0.731275,-0.1545625,0.3972625
0.674944444,-0.166644444,0.428333333
0.6346,-0.1500625,0.4180625
0.6183625,-0.10565,0.4195625
0.6823,-0.072677778,0.442933333
0.770822222,-0.081377778,0.466
0.850671429,-0.095214286,0.451014286
1.02895,-0.12629,0.40598
1.225425,-0.1066875,0.4286875
1.2433,-0.0596125,0.4705625
1.238533333,-0.006011111,0.541077778
1.213742857,-0.024828571,0.572442857
1.08955,-0.14749,0.47515
1.0768,-0.2608,0.388544444
1.106,-0.2518375,0.2306125
1.042833333,-0.138588889,0.181033333
1.0843125,-0.1260375,0.24985
1.0371625,-0.1266,0.2370125
0.861777778,-0.146311111,0.222166667
0.6465125,-0.2257,0.1597
0.562322222,-0.205422222,0.1075
0.681025,-0.1451375,0.1061
0.794811111,-0.187755556,0.080977778
0.912022222,-0.193155556,0.087555556
1.1248375,-0.11785,0.1686125
1.265466667,-0.082744444,0.228011111
1.1568,-0.096685714,0.234071429
0.95875,-0.1086,0.31155
0.768625,-0.1160375,0.3860125
0.702833333,-0.105822222,0.382866667
0.7817125,-0.0650625,0.34275
0.89225,-0.0131625,0.3063125
0.942222222,0.020577778,0.231266667
0.9716875,0.0306625,0.1893125
1.026844444,0.033511111,0.189477778
1.089022222,0.019822222,0.219311111
1.100533333,-0.012266667,0.272116667
1.060009091,-0.053581818,0.361472727
1.01005,-0.0671375,0.4534125
1.0223875,-0.0434125,0.445525
1.069266667,-0.024922222,0.386511111
1.130188889,-0.042433333,0.307433333
1.1955125,-0.0826,0.209675
1.235522222,-0.1423,0.095911111
1.229114286,-0.188785714,0.010328571
1.2377,-0.2049,-0.032044444
1.1697,-0.2451,-0.043428571
0.9751,-0.36575,0.00558
0.747233333,-0.425211111,0.256933333
0.565725,-0.4473125,0.6579375
0.674011111,-0.304988889,0.803355556
0.8533625,-0.05745,0.5415625
0.947111111,0.093488889,0.3358
0.959744444,0.122255556,0.271766667
0.93905,0.07855,0.2430875
0.921375,0.038275,0.2249375
0.913033333,0.016477778,0.2191
0.905666667,0.010333333,0.2384
0.8918125,-0.04675,0.24845
0.813,-0.1094,0.248488889
0.7372875,-0.1296625,0.2767
0.6696625,-0.1344625,0.3809625
0.6163,-0.135477778,0.520788889
0.645355556,-0.118322222,0.570366667
0.8275,-0.091125,0.55445
1.009722222,-0.110966667,0.500244444
1.154042857,-0.132785714,0.396928571
1.24825,-0.11028,0.33147
1.1933,-0.0749625,0.366525
1.1140375,-0.0312875,0.5071875
1.094,-0.007811111,0.571155556
1.070871429,-0.0683,0.465771429
1.09492,-0.22385,0.37333
1.1690625,-0.311025,0.2166
1.087277778,-0.231866667,0.075211111
1.0886875,-0.144875,0.072225
1.08735,-0.1273125,0.1407875
0.943277778,-0.129533333,0.216055556
0.727144444,-0.157655556,0.172466667
0.6482625,-0.1521375,0.091175
0.7052,-0.134144444,0.049333333
0.803575,-0.1673125,0.0021375
0.905644444,-0.150944444,0.047311111
1.0345375,-0.110825,0.15785
1.141033333,-0.087777778,0.200311111
1.090077778,-0.111133333,0.189511111
0.9505,-0.136875,0.202475
0.815555556,-0.139666667,0.279211111
0.75125,-0.1107,0.32035
0.8405,-0.0211375,0.29535
0.931688889,0.029722222,0.212311111
0.967844444,0.043022222,0.153711111
0.9802,0.0640125,0.1334125
1.010444444,0.090055556,0.159911111
1.0295,0.08175,0.22915
1.032122222,0.036633333,0.253455556
1.022828571,-0.011171429,0.275528571
1.025155556,-0.032411111,0.304733333
1.015044444,-0.037977778,0.337111111
1.020975,-0.0073375,0.3661375
1.035722222,0.024166667,0.384222222
1.069028571,0.021442857,0.3707
1.13683,0.00526,0.27295
1.24725,-0.0242625,0.1505625
1.332811111,-0.083333333,0.0449
1.35405,-0.18405,-0.065275
1.293377778,-0.241955556,-0.1296
1.079275,-0.32585,-0.108025
0.871288889,-0.446077778,0.087155556
0.716866667,-0.453222222,0.411122222
0.6736375,-0.4096125,0.7529875
0.7511,-0.294814286,0.764657143
0.87482,-0.10078,0.50089
0.941966667,0.086566667,0.272
0.9438375,0.115575,0.207075
0.9207875,0.0874625,0.1718375
0.927457143,0.064671429,0.148228571
0.953618182,0.068018182,0.154545455
0.9634375,0.0444625,0.17605
0.8874,-0.0835875,0.1949375
0.790644444,-0.161566667,0.251888889
0.7313375,-0.1938875,0.32915
0.663188889,-0.191422222,0.401711111
0.597466667,-0.171977778,0.459611111
0.6289375,-0.1500125,0.4863875
0.749322222,-0.132377778,0.500811111
0.907,-0.1036875,0.5023125
1.0439,-0.059475,0.432025
1.172966667,-0.011011111,0.366466667
1.2456,0.029725,0.3355375
1.2021,0.045277778,0.383666667
1.1561875,0.0588625,0.4801875
1.165133333,-0.014077778,0.526366667
1.19175,-0.1569875,0.4057375
1.2337375,-0.2383125,0.2615125
1.138488889,-0.250666667,0.052522222
1.113725,-0.214675,-0.013375
1.107711111,-0.217977778,0.076488889
0.905577778,-0.225566667,0.244566667
0.6258875,-0.25155,0.2959875
0.492377778,-0.244222222,0.168477778
0.6201125,-0.1917875,0.0944125
0.798577778,-0.181188889,0.064044444
0.9251375,-0.16365,0.036225
1.089333333,-0.087277778,0.040311111
1.3226,-0.0308625,0.0614375
1.3175,-0.0698625,0.1094375
1.042355556,-0.138755556,0.234077778
0.79565,-0.1672125,0.3694125
0.694733333,-0.139255556,0.397022222
0.7290375,-0.07925,0.3495125
0.786511111,-0.065111111,0.265555556
0.8459875,-0.0423375,0.16895
0.910088889,-0.002577778,0.125
0.976655556,0.017111111,0.140822222
1.0497875,0.02295,0.190175
1.114342857,0.029257143,0.260828571
1.15288,0.0213,0.33335
1.1375375,0.0051,0.385875
1.082244444,-0.003622222,0.407922222
1.083977778,-0.000255556,0.380188889
1.1099625,-0.0376125,0.3350875
1.161022222,-0.100955556,0.229711111
1.3075375,-0.1403375,0.14125
1.394511111,-0.231033333,0.077177778
1.3292875,-0.2766125,0.001675
1.2741,-0.2801375,-0.0706625
1.138777778,-0.314955556,-0.041488889
0.8534,-0.431577778,0.239833333
0.47975,-0.5250125,0.72835
0.556044444,-0.350211111,0.648666667
0.6431625,-0.1786125,0.4510375
0.748444444,-0.093877778,0.316533333
0.903255556,0.058111111,0.262922222
0.87475,0.1636125,0.2274875
0.86085,0.128375,0.1720375
0.90765,0.0778875,0.16065
0.967144444,0.047444444,0.205544444
0.995622222,-0.000222222,0.277688889
0.8798125,-0.1026125,0.352425
0.767966667,-0.167288889,0.460611111
0.695642857,-0.150971429,0.535171429
0.668466667,-0.078866667,0.502266667
0.681255556,-0.050577778,0.451377778
0.7269625,-0.0538375,0.4395875
0.820688889,-0.038722222,0.4416
0.9620875,-0.026475,0.4114625
1.100285714,0.012142857,0.3988
1.165745455,0.0404,0.423190909
1.176175,0.0823,0.4618125
1.1999375,0.0875125,0.5117875
1.181125,-0.012975,0.4779125
1.17194,-0.12918,0.42477
1.1916375,-0.1820375,0.3323
1.079855556,-0.140722222,0.201688889
1.058525,-0.125725,0.1456875
1.03735,-0.1429,0.1460125
0.877111111,-0.153844444,0.196566667
0.686611111,-0.192044444,0.163733333
0.611575,-0.1537625,0.0932375
0.6436625,-0.1226375,0.0875875
0.752188889,-0.137955556,0.063977778
0.906233333,-0.0908,0.051355556
1.1188875,-0.0173875,0.0410125
1.312975,0.0048625,0.0636125
1.252433333,-0.028633333,0.145522222
0.983722222,-0.065333333,0.295977778
0.77915,-0.087875,0.394175
0.70175,-0.0753125,0.4060875
0.737044444,-0.036088889,0.341777778
0.839544444,0.000422222,0.267477778
0.9195625,0.021575,0.223675
0.9662,0.0478375,0.1750875
1.015911111,0.061366667,0.159511111
1.050844444,0.038555556,0.174533333
1.088,0.015875,0.2186625
1.107388889,-0.014077778,0.261533333
1.100485714,-0.029471429,0.292371429
1.064911111,-0.040166667,0.324333333
1.012377778,-0.061266667,0.323566667
1.080988889,-0.049388889,0.267066667
1.2116875,-0.0680375,0.1388375
1.323771429,-0.080228571,0.021428571
1.38405,-0.14649,-0.09379
1.325377778,-0.216988889,-0.154011111
1.1456,-0.2737375,-0.0628875
0.965522222,-0.341288889,0.124633333
0.796442857,-0.395528571,0.356157143
0.709255556,-0.3987,0.490011111
0.754866667,-0.323322222,0.482922222
0.813811111,-0.177922222,0.397355556
0.88835,-0.0269,0.304225
0.910542857,0.0395,0.2342
0.90469,0.06525,0.18728
0.927044444,0.054944444,0.1483
0.9469,0.027125,0.1449125
0.948042857,-0.015571429,0.160885714
0.89147,-0.11979,0.2035
0.844533333,-0.182611111,0.273577778
0.8007125,-0.21365,0.3237875
0.744444444,-0.2155,0.345444444
0.728925,-0.1757,0.391325
0.765166667,-0.107233333,0.429222222
0.8244875,-0.0500875,0.4745625
0.9129125,-0.0262,0.47675
1.023722222,-0.010133333,0.421666667
1.1192,-0.0003125,0.3325625
1.145655556,-0.013777778,0.284488889
1.148833333,0.004266667,0.313833333
1.21895,0.0771875,0.432875
1.1849875,-0.0043625,0.4439875
1.137211111,-0.1295,0.338388889
1.2086125,-0.2571625,0.2403375
1.1553,-0.317888889,0.088588889
1.051775,-0.254125,0.0507
1.049766667,-0.205288889,0.128677778
0.9521625,-0.196375,0.1743
0.783644444,-0.174777778,0.1744
0.6161125,-0.2073,0.09525
0.633244444,-0.157033333,0.0503
0.750188889,-0.123955556,0.041922222
0.861675,-0.132125,0.013025
1.010314286,-0.100085714,0.052285714
1.24166,-0.03025,0.10283
1.366488889,-0.037244444,0.141488889
1.1374625,-0.0775,0.1420875
0.903066667,-0.106288889,0.247744444
0.760625,-0.1170125,0.337225
0.744625,-0.0809375,0.3300375
0.803077778,-0.017544444,0.255611111
0.8328875,-0.003625,0.1756125
0.880522222,0.002611111,0.114033333
0.943014286,0.036771429,0.0897
0.99744,0.06528,0.12185
1.020922222,0.051811111,0.189766667
1.0339,0.0331375,0.229725
1.036011111,0.003644444,0.2594
1.0364375,-0.0254125,0.2872125
1.035466667,-0.023666667,0.315266667
1.034925,-0.0010875,0.35325
1.071088889,0.035377778,0.3612
1.1555125,0.0373125,0.306625
1.265966667,-0.007177778,0.182122222
1.3139875,-0.09245,0.0362375
1.2866,-0.194775,-0.0592625
1.188666667,-0.294688889,-0.141366667
1.2135,-0.282577778,-0.191666667
1.053,-0.351375,-0.109175
0.746011111,-0.460055556,0.231166667
0.549625,-0.509725,0.80005
0.71095,-0.325175,0.6616875
0.888155556,-0.106877778,0.454677778
0.999177778,0.030911111,0.293766667
0.991725,0.1536875,0.141675
1.016077778,0.172677778,0.109444444
0.9961875,0.1366375,0.066075
0.99105,0.098525,0.076
0.970122222,0.082511111,0.142344444
0.872244444,-0.015611111,0.212855556
0.7803375,-0.1335375,0.269675
0.720377778,-0.200533333,0.326288889
0.651925,-0.2139875,0.36995
0.642411111,-0.178244444,0.406211111
0.6907,-0.1326625,0.449075
0.7633,-0.116577778,0.4496
0.9213,-0.1168625,0.4249625
1.1369,-0.100844444,0.370011111
1.2679625,-0.047575,0.35255
1.283544444,-0.055744444,0.298444444
1.3357,-0.14055,0.218425
1.3353375,-0.2000125,0.1948
1.272466667,-0.257922222,0.146366667
1.214188889,-0.227,0.1501
1.11585,-0.165825,0.2020625
1.035277778,-0.106544444,0.209444444
0.89835,-0.1084125,0.2379375
0.789544444,-0.107755556,0.2045
0.6879875,-0.133875,0.112075
0.693177778,-0.1153,0.054555556
0.77715,-0.09825,0.0309
0.860088889,-0.141922222,-0.0153
0.9355375,-0.1404375,-0.025025
1.109775,-0.10985,-0.008925
1.2773,-0.0961,0.030155556
1.136511111,-0.1413,0.164544444
0.9068,-0.1152375,0.3357125
0.755955556,-0.085877778,0.415888889
0.692771429,-0.070828571,0.374457143
0.79082,-0.01033,0.29346
0.882375,0.0182,0.2133375
0.945955556,0.042255556,0.135111111
0.9854625,0.0487625,0.106225
1.0189875,0.0506125,0.142725
1.060588889,0.032288889,0.201366667
1.065866667,0.014511111,0.253811111
1.0604375,-0.0089625,0.3284375
1.0398875,-0.03665,0.3941625
1.0369,-0.03005,0.4272375
1.07327,-0.0045,0.40822
1.1016,-0.022225,0.3315875
1.183055556,-0.080333333,0.243644444
1.298025,-0.1414125,0.1349375
1.320983333,-0.2079,0.028983333
1.276163636,-0.2616,-0.062581818
1.242775,-0.2668875,-0.1540625
1.067255556,-0.333411111,-0.143422222
0.800375,-0.44505,0.0470875
0.626377778,-0.467211111,0.408077778
0.6312375,-0.3970375,0.8566
0.786288889,-0.180511111,0.660833333
0.8886875,-0.0037625,0.3884375
0.940877778,0.0959,0.279022222
0.9255,0.0978625,0.2345125
0.916933333,0.076033333,0.165988889
0.959975,0.0480875,0.13655
0.981844444,0.024488889,0.152444444
0.9509375,-0.037725,0.181675
0.830822222,-0.1462,0.225777778
0.77175,-0.1809375,0.2989875
0.7169,-0.196777778,0.395222222
0.6758125,-0.189975,0.46705
0.701622222,-0.161277778,0.458288889
0.7417625,-0.1662375,0.46795
0.825625,-0.141925,0.502275
0.937377778,-0.116877778,0.465811111
1.063477778,-0.104622222,0.375666667
1.1267,-0.069655556,0.361444444
1.099657143,-0.0424,0.390628571
1.102566667,0.000911111,0.451422222
1.129655556,0.027233333,0.494788889
1.130577778,-0.040311111,0.454011111
1.15425,-0.157,0.3826375
1.194142857,-0.225385714,0.293285714
1.08977,-0.23886,0.13168
0.9896625,-0.21145,0.060525
1.016988889,-0.203911111,0.158666667
0.9370375,-0.1907125,0.237025
0.794871429,-0.181985714,0.243614286
0.705736364,-0.166672727,0.156754545
0.7122875,-0.12585,0.0921
0.757222222,-0.155133333,0.040877778
0.834071429,-0.147671429,0.002828571
0.958242857,-0.1177,0.006185714
1.168227273,-0.103972727,0.058590909
1.3227,-0.1045375,0.1113875
1.2308,-0.082433333,0.181277778
1.000044444,-0.095311111,0.295188889
0.8245,-0.12305,0.390416667
0.72012,-0.14012,0.39896
0.719488889,-0.111055556,0.296433333
0.8439,-0.0153125,0.2161
0.92295,0.028125,0.153075
0.962711111,0.046633333,0.122677778
1.006766667,0.058044444,0.152
1.053333333,0.056255556,0.210655556
1.0597,0.008375,0.2526875
1.0583,-0.0440375,0.29385
1.0604,-0.075166667,0.332577778
1.039455556,-0.067244444,0.359988889
1.0272375,-0.0218125,0.3746125
1.0233,0.0037875,0.3655375
1.010766667,0.001888889,0.310877778
1.032575,-0.025425,0.254975
1.093555556,-0.0712,0.173066667
1.2109625,-0.117875,0.094225
1.289855556,-0.176133333,0.007244444
1.277775,-0.232725,-0.0739625
1.250466667,-0.248377778,-0.161855556
1.0630625,-0.36015,-0.1166375
0.80915,-0.458675,0.128275
0.610977778,-0.488566667,0.471944444
0.5782,-0.4309,0.852788889
0.771814286,-0.215057143,0.644557143
0.92649,-0.01002,0.33124
1.015375,0.110975,0.2400375
1.018944444,0.093511111,0.238022222
1.0313625,0.069,0.1940125
1.0535375,0.0529,0.16725
